{
  "resourceType" : "Bundle",
  "id" : "SampleSzBundle",
  "type" : "transaction",
  "entry" : [{
    "fullUrl" : "http://172.209.216.154:3447/fhir/Patient/SampleSzPatient",
    "resource" : {
      "resourceType" : "Patient",
      "id" : "SampleSzPatient",
      "meta" : {
        "profile" : ["http://172.209.216.154:3447/fhir/StructureDefinition/SzPatient"]
      },
      "text" : {
        "status" : "generated",
        "div" : "<div xmlns=\"http://www.w3.org/1999/xhtml\"><a name=\"Patient_SampleSzPatient\"> </a><p class=\"res-header-id\"><b>Generated Narrative: Patient SampleSzPatient</b></p><a name=\"SampleSzPatient\"> </a><a name=\"hcSampleSzPatient\"> </a><div style=\"display: inline-block; background-color: #d9e0e7; padding: 6px; margin: 4px; border: 1px solid #8da1b4; border-radius: 5px; line-height: 60%\"><p style=\"margin-bottom: 0px\"/><p style=\"margin-bottom: 0px\">Profile: <a href=\"StructureDefinition-SzPatient.html\">Eswatini Patient Profile</a></p></div><p style=\"border: 1px #661aff solid; background-color: #e6e6ff; padding: 10px;\">Celucolo Celani Sacolo  Male, DoB: 2000-01-01 ( Medical Record Number: Client Management Information System#M001010101-1\u00a0(use:\u00a0usual,\u00a0))</p><hr/><table class=\"grid\"><tr><td style=\"background-color: #f3f5da\" title=\"Known Marital status of Patient\">Marital Status:</td><td colspan=\"3\"><span title=\"Codes:{http://terminology.hl7.org/CodeSystem/v3-MaritalStatus M}\">Married</span></td></tr><tr><td style=\"background-color: #f3f5da\" title=\"Other Id (see the one above)\">Other Id:</td><td colspan=\"3\">Personal ID Number/2001010000001\u00a0(use:\u00a0official,\u00a0)</td></tr><tr><td style=\"background-color: #f3f5da\" title=\"Ways to contact the Patient\">Contact Detail</td><td colspan=\"3\"><ul><li>ph: 7600 0000</li><li>123 Somhlolo Rd Mbabane 0000 SZ </li></ul></td></tr><tr><td style=\"background-color: #f3f5da\" title=\"The nationality of the patient.\"><a href=\"http://hl7.org/fhir/extensions/5.3.0-ballot-tc1/StructureDefinition-patient-nationality.html\">Patient Nationality</a></td><td colspan=\"3\"><span title=\"Codes:{urn:iso:std:iso:3166 SWZ}\">Eswatini</span></td></tr><tr><td style=\"background-color: #f3f5da\" title=\"Extention for Eswatini Chiefdom\"><a href=\"StructureDefinition-SzChiefdomExtension.html\">Extention: Eswatini Chiefdom</a></td><td colspan=\"3\"><span title=\"Codes:{http://172.209.216.154:3447/fhir/CodeSystem/SzChiefdomCS 7}\">Lobamba</span></td></tr><tr><td style=\"background-color: #f3f5da\" title=\"Extention for Eswatini Chiefdom\"><a href=\"StructureDefinition-SzRegistrationDate.html\">Extention: Patient Registration Date</a></td><td colspan=\"3\">2025-06-01 10:00:00+0000</td></tr><tr><td style=\"background-color: #f3f5da\" title=\"Extention for Eswatini Tinkhundla\"><a href=\"StructureDefinition-SzInkhundlaExtension.html\">Extention: Eswatini Inkhundla</a></td><td colspan=\"3\"><span title=\"Codes:{http://172.209.216.154:3447/fhir/CodeSystem/SzTinkhundlaCS 3}\">LOBAMBA</span></td></tr></table></div>"
      },
      "extension" : [{
        "url" : "http://hl7.org/fhir/StructureDefinition/patient-nationality",
        "valueCodeableConcept" : {
          "coding" : [{
            "system" : "urn:iso:std:iso:3166",
            "code" : "SWZ",
            "display" : "Eswatini"
          }],
          "text" : "Eswatini"
        }
      },
      {
        "url" : "http://172.209.216.154:3447/fhir/StructureDefinition/SzInkhundlaExtension",
        "valueCodeableConcept" : {
          "coding" : [{
            "system" : "http://172.209.216.154:3447/fhir/CodeSystem/SzTinkhundlaCS",
            "code" : "3",
            "display" : "LOBAMBA"
          }],
          "text" : "LOBAMBA"
        }
      },
      {
        "url" : "http://172.209.216.154:3447/fhir/StructureDefinition/SzChiefdomExtension",
        "valueCodeableConcept" : {
          "coding" : [{
            "system" : "http://172.209.216.154:3447/fhir/CodeSystem/SzChiefdomCS",
            "code" : "7",
            "display" : "Lobamba"
          }],
          "text" : "Lobamba"
        }
      },
      {
        "url" : "http://172.209.216.154:3447/fhir/StructureDefinition/SzRegistrationDate",
        "valueDateTime" : "2025-06-01T10:00:00Z"
      }],
      "identifier" : [{
        "use" : "usual",
        "type" : {
          "coding" : [{
            "system" : "http://172.209.216.154:3447/fhir/CodeSystem/SzPersonIdentificationsCS",
            "code" : "MR",
            "display" : "Medical Record Number"
          }]
        },
        "system" : "urn:health:cmis",
        "value" : "M001010101-1"
      },
      {
        "use" : "official",
        "type" : {
          "coding" : [{
            "system" : "http://172.209.216.154:3447/fhir/CodeSystem/SzPersonIdentificationsCS",
            "code" : "PI",
            "display" : "Personal ID Number"
          }]
        },
        "system" : "urn:homeaffairs:population-register",
        "value" : "2001010000001"
      }],
      "name" : [{
        "family" : "Sacolo",
        "given" : ["Celucolo",
        "Celani"]
      }],
      "telecom" : [{
        "system" : "phone",
        "value" : "7600 0000"
      }],
      "gender" : "male",
      "birthDate" : "2000-01-01",
      "address" : [{
        "line" : ["123 Somhlolo Rd"],
        "city" : "Mbabane",
        "postalCode" : "0000",
        "country" : "SZ"
      }],
      "maritalStatus" : {
        "coding" : [{
          "system" : "http://terminology.hl7.org/CodeSystem/v3-MaritalStatus",
          "code" : "M",
          "display" : "Married"
        }]
      }
    },
    "request" : {
      "method" : "PUT",
      "url" : "Patient/SampleSzPatient"
    }
  },
  {
    "fullUrl" : "http://172.209.216.154:3447/fhir/Encounter/SampleSzEncounter",
    "resource" : {
      "resourceType" : "Encounter",
      "id" : "SampleSzEncounter",
      "meta" : {
        "profile" : ["http://172.209.216.154:3447/fhir/StructureDefinition/SzEncounter"]
      },
      "text" : {
        "status" : "generated",
        "div" : "<div xmlns=\"http://www.w3.org/1999/xhtml\"><a name=\"Encounter_SampleSzEncounter\"> </a><p class=\"res-header-id\"><b>Generated Narrative: Encounter SampleSzEncounter</b></p><a name=\"SampleSzEncounter\"> </a><a name=\"hcSampleSzEncounter\"> </a><div style=\"display: inline-block; background-color: #d9e0e7; padding: 6px; margin: 4px; border: 1px solid #8da1b4; border-radius: 5px; line-height: 60%\"><p style=\"margin-bottom: 0px\"/><p style=\"margin-bottom: 0px\">Profile: <a href=\"StructureDefinition-SzEncounter.html\">Eswatini Encounter Profile</a></p></div><p><b>status</b>: Finished</p><p><b>class</b>: <a href=\"CodeSystem-SzEncounterClassificationCS.html#SzEncounterClassificationCS-OPD\">Code System: Encounter Classification OPD</a>: Out Patient Department</p><p><b>subject</b>: <a href=\"Patient-SampleSzPatient.html\">Celucolo Celani Sacolo  Male, DoB: 2000-01-01 ( Medical Record Number: Client Management Information System#M001010101-1\u00a0(use:\u00a0usual,\u00a0))</a></p><h3>Participants</h3><table class=\"grid\"><tr><td style=\"display: none\">-</td><td><b>Individual</b></td></tr><tr><td style=\"display: none\">*</td><td><a href=\"Practitioner-SampleSzPractitioner.html\">Practitioner Thabile Celiwe Dlamini </a></td></tr></table><p><b>period</b>: 2023-10-01 10:00:00+0000 --&gt; (ongoing)</p><h3>Locations</h3><table class=\"grid\"><tr><td style=\"display: none\">-</td><td><b>Location</b></td><td><b>Status</b></td></tr><tr><td style=\"display: none\">*</td><td><a href=\"Location-SampleSzLocation.html\">Location Mahwalala Red Cross Clinic</a></td><td>Completed</td></tr></table></div>"
      },
      "status" : "finished",
      "class" : {
        "system" : "http://172.209.216.154:3447/fhir/CodeSystem/SzEncounterClassificationCS",
        "code" : "OPD",
        "display" : "Out Patient Department"
      },
      "subject" : {
        "reference" : "Patient/SampleSzPatient"
      },
      "participant" : [{
        "individual" : {
          "reference" : "Practitioner/SampleSzPractitioner"
        }
      }],
      "period" : {
        "start" : "2023-10-01T10:00:00Z"
      },
      "location" : [{
        "location" : {
          "reference" : "Location/SampleSzLocation"
        },
        "status" : "completed"
      }]
    },
    "request" : {
      "method" : "PUT",
      "url" : "Encounter/SampleSzEncounter"
    }
  },
  {
    "fullUrl" : "http://172.209.216.154:3447/fhir/EpisodeOfCare/SzEpisodeOfCareExampleArtStartDate",
    "resource" : {
      "resourceType" : "EpisodeOfCare",
      "id" : "SzEpisodeOfCareExampleArtStartDate",
      "meta" : {
        "profile" : ["http://172.209.216.154:3447/fhir/StructureDefinition/SzEpisodeOfCare"]
      },
      "text" : {
        "status" : "generated",
        "div" : "<div xmlns=\"http://www.w3.org/1999/xhtml\"><a name=\"EpisodeOfCare_SzEpisodeOfCareExampleArtStartDate\"> </a><p class=\"res-header-id\"><b>Generated Narrative: EpisodeOfCare SzEpisodeOfCareExampleArtStartDate</b></p><a name=\"SzEpisodeOfCareExampleArtStartDate\"> </a><a name=\"hcSzEpisodeOfCareExampleArtStartDate\"> </a><div style=\"display: inline-block; background-color: #d9e0e7; padding: 6px; margin: 4px; border: 1px solid #8da1b4; border-radius: 5px; line-height: 60%\"><p style=\"margin-bottom: 0px\"/><p style=\"margin-bottom: 0px\">Profile: <a href=\"StructureDefinition-SzEpisodeOfCare.html\">Eswatini Episode of Care</a></p></div><p><b>status</b>: Active</p><p><b>type</b>: <span title=\"Codes:{http://172.209.216.154:3447/fhir/CodeSystem/SzServicePointCS 5}\">ART</span></p><p><b>patient</b>: <a href=\"Patient-SampleSzPatient.html\">Celucolo Celani Sacolo  Male, DoB: 2000-01-01 ( Medical Record Number: Client Management Information System#M001010101-1\u00a0(use:\u00a0usual,\u00a0))</a></p><p><b>period</b>: 2025-09-03 --&gt; (ongoing)</p></div>"
      },
      "status" : "active",
      "type" : [{
        "coding" : [{
          "system" : "http://172.209.216.154:3447/fhir/CodeSystem/SzServicePointCS",
          "code" : "5",
          "display" : "ART"
        }],
        "text" : "ART"
      }],
      "patient" : {
        "reference" : "Patient/SampleSzPatient"
      },
      "period" : {
        "start" : "2025-09-03"
      }
    },
    "request" : {
      "method" : "PUT",
      "url" : "EpisodeOfCare/SzEpisodeOfCareExampleArtStartDate"
    }
  },
  {
    "fullUrl" : "http://172.209.216.154:3447/fhir/Procedure/SampleSzIPTProcedure",
    "resource" : {
      "resourceType" : "Procedure",
      "id" : "SampleSzIPTProcedure",
      "meta" : {
        "profile" : ["http://172.209.216.154:3447/fhir/StructureDefinition/SzProcedure"]
      },
      "text" : {
        "status" : "generated",
        "div" : "<div xmlns=\"http://www.w3.org/1999/xhtml\"><a name=\"Procedure_SampleSzIPTProcedure\"> </a><p class=\"res-header-id\"><b>Generated Narrative: Procedure SampleSzIPTProcedure</b></p><a name=\"SampleSzIPTProcedure\"> </a><a name=\"hcSampleSzIPTProcedure\"> </a><div style=\"display: inline-block; background-color: #d9e0e7; padding: 6px; margin: 4px; border: 1px solid #8da1b4; border-radius: 5px; line-height: 60%\"><p style=\"margin-bottom: 0px\"/><p style=\"margin-bottom: 0px\">Profile: <a href=\"StructureDefinition-SzProcedure.html\">Eswatini Procedure Profile</a></p></div><p><b>status</b>: Completed</p><p><b>category</b>: <span title=\"Codes:{https://terminology.hl7.org/CodeSystem/procedure-category treatment}\">Treatment</span></p><p><b>code</b>: <span title=\"Codes:{http://snomed.info/sct 12345}\">Isoniazid Preventive Therapy</span></p><p><b>subject</b>: <a href=\"Patient-SampleSzPatient.html\">Celucolo Celani Sacolo  Male, DoB: 2000-01-01 ( Medical Record Number: Client Management Information System#M001010101-1\u00a0(use:\u00a0usual,\u00a0))</a></p><p><b>performed</b>: 2024-01-01 --&gt; 2024-06-11</p></div>"
      },
      "status" : "completed",
      "category" : {
        "coding" : [{
          "system" : "https://terminology.hl7.org/CodeSystem/procedure-category",
          "code" : "treatment",
          "display" : "Treatment"
        }],
        "text" : "Treatment"
      },
      "code" : {
        "coding" : [{
          "system" : "http://snomed.info/sct",
          "code" : "12345",
          "display" : "Isoniazid Preventive Therapy"
        }],
        "text" : "Isoniazid Preventive Therapy"
      },
      "subject" : {
        "reference" : "Patient/SampleSzPatient"
      },
      "performedPeriod" : {
        "start" : "2024-01-01",
        "end" : "2024-06-11"
      }
    },
    "request" : {
      "method" : "PUT",
      "url" : "Procedure/SampleSzIPTProcedure"
    }
  },
  {
    "fullUrl" : "http://172.209.216.154:3447/fhir/DiagnosticReport/SampleSzLabTest",
    "resource" : {
      "resourceType" : "DiagnosticReport",
      "id" : "SampleSzLabTest",
      "meta" : {
        "profile" : ["http://172.209.216.154:3447/fhir/StructureDefinition/SzLabTest"]
      },
      "text" : {
        "status" : "generated",
        "div" : "<div xmlns=\"http://www.w3.org/1999/xhtml\"><a name=\"DiagnosticReport_SampleSzLabTest\"> </a><p class=\"res-header-id\"><b>Generated Narrative: DiagnosticReport SampleSzLabTest</b></p><a name=\"SampleSzLabTest\"> </a><a name=\"hcSampleSzLabTest\"> </a><div style=\"display: inline-block; background-color: #d9e0e7; padding: 6px; margin: 4px; border: 1px solid #8da1b4; border-radius: 5px; line-height: 60%\"><p style=\"margin-bottom: 0px\"/><p style=\"margin-bottom: 0px\">Profile: <a href=\"StructureDefinition-SzLabTest.html\">Eswatini Lab Test Profile</a></p></div><h2><span title=\"Codes:{http://172.209.216.154:3447/fhir/CodeSystem/SzTestCodeCS HIVVL}\">HIV Viral Load (Plasma)</span> </h2><table class=\"grid\"><tr><td>Subject</td><td>Celucolo Celani Sacolo  Male, DoB: 2000-01-01 ( Medical Record Number: Client Management Information System#M001010101-1\u00a0(use:\u00a0usual,\u00a0))</td></tr><tr><td>When For</td><td>2024-09-11 10:00:00+0000</td></tr><tr><td>Reported</td><td>2024-09-11 10:00:00+0000</td></tr><tr><td>Performer</td><td> <a href=\"Practitioner-SampleSzPractitioner.html\">Practitioner Thabile Celiwe Dlamini </a></td></tr></table><p><b>Report Details</b></p></div>"
      },
      "status" : "final",
      "code" : {
        "coding" : [{
          "system" : "http://172.209.216.154:3447/fhir/CodeSystem/SzTestCodeCS",
          "code" : "HIVVL",
          "display" : "HIV Viral Load (Plasma)"
        }],
        "text" : "HIV Viral Load (Plasma)"
      },
      "subject" : {
        "reference" : "Patient/SampleSzPatient"
      },
      "encounter" : {
        "reference" : "Encounter/SampleSzEncounter"
      },
      "effectiveDateTime" : "2024-09-11T10:00:00Z",
      "issued" : "2024-09-11T10:00:00Z",
      "performer" : [{
        "reference" : "Practitioner/SampleSzPractitioner"
      }],
      "specimen" : [{
        "reference" : "Specimen/SampleSzSpecimen"
      }]
    },
    "request" : {
      "method" : "PUT",
      "url" : "DiagnosticReport/SampleSzLabTest"
    }
  },
  {
    "fullUrl" : "http://172.209.216.154:3447/fhir/MedicationRequest/SampleSzMedicationRequest",
    "resource" : {
      "resourceType" : "MedicationRequest",
      "id" : "SampleSzMedicationRequest",
      "meta" : {
        "profile" : ["http://172.209.216.154:3447/fhir/StructureDefinition/SzMedicationRequest"]
      },
      "text" : {
        "status" : "generated",
        "div" : "<div xmlns=\"http://www.w3.org/1999/xhtml\"><a name=\"MedicationRequest_SampleSzMedicationRequest\"> </a><p class=\"res-header-id\"><b>Generated Narrative: MedicationRequest SampleSzMedicationRequest</b></p><a name=\"SampleSzMedicationRequest\"> </a><a name=\"hcSampleSzMedicationRequest\"> </a><div style=\"display: inline-block; background-color: #d9e0e7; padding: 6px; margin: 4px; border: 1px solid #8da1b4; border-radius: 5px; line-height: 60%\"><p style=\"margin-bottom: 0px\"/><p style=\"margin-bottom: 0px\">Profile: <a href=\"StructureDefinition-SzMedicationRequest.html\">Eswatini Medication Request Profile</a></p></div><p><b>status</b>: Active</p><p><b>intent</b>: Order</p><p><b>medication</b>: <span title=\"Codes:{http://172.209.216.154:3447/fhir/CodeSystem/SzProductCodeCS 102492}\">Paracetamol Tablets 500g (Coloured Green) 100 TABS</span></p><p><b>subject</b>: <a href=\"Patient-SampleSzPatient.html\">Celucolo Celani Sacolo  Male, DoB: 2000-01-01 ( Medical Record Number: Client Management Information System#M001010101-1\u00a0(use:\u00a0usual,\u00a0))</a></p><p><b>encounter</b>: <a href=\"Encounter-SampleSzEncounter.html\">Encounter: status = finished; class = Out Patient Department (Code System: Encounter Classification#OPD); period = 2023-10-01 10:00:00+0000 --&gt; (ongoing)</a></p><p><b>authoredOn</b>: 2024-09-11 10:00:00+0000</p><p><b>requester</b>: <a href=\"Practitioner-SampleSzPractitioner.html\">Practitioner Thabile Celiwe Dlamini </a></p><blockquote><p><b>dosageInstruction</b></p><p><b>text</b>: Take one tablet by mouth 3 times a day before food</p><p><b>timing</b>: 3 per 1 day</p><h3>DoseAndRates</h3><table class=\"grid\"><tr><td style=\"display: none\">-</td><td><b>Dose[x]</b></td></tr><tr><td style=\"display: none\">*</td><td>1 tablet</td></tr></table></blockquote></div>"
      },
      "status" : "active",
      "intent" : "order",
      "medicationCodeableConcept" : {
        "coding" : [{
          "system" : "http://172.209.216.154:3447/fhir/CodeSystem/SzProductCodeCS",
          "code" : "102492",
          "display" : "Paracetamol Tablets 500g (Coloured Green) 100 TABS"
        }],
        "text" : "Paracetamol Tablets 500g (Coloured Green) 100 TABS"
      },
      "subject" : {
        "reference" : "Patient/SampleSzPatient"
      },
      "encounter" : {
        "reference" : "Encounter/SampleSzEncounter"
      },
      "authoredOn" : "2024-09-11T10:00:00Z",
      "requester" : {
        "reference" : "Practitioner/SampleSzPractitioner"
      },
      "dosageInstruction" : [{
        "text" : "Take one tablet by mouth 3 times a day before food",
        "timing" : {
          "repeat" : {
            "frequency" : 3,
            "period" : 1,
            "periodUnit" : "d"
          }
        },
        "doseAndRate" : [{
          "doseQuantity" : {
            "value" : 1,
            "unit" : "tablet"
          }
        }]
      }]
    },
    "request" : {
      "method" : "PUT",
      "url" : "MedicationRequest/SampleSzMedicationRequest"
    }
  }]
}