<?xml version="1.0" encoding="UTF-8"?>

<Bundle xmlns="http://hl7.org/fhir">
  <id value="SampleSzMalariaBundle"/>
  <type value="transaction"/>
  <entry>
    <fullUrl value="http://localhost:3447/fhir/Patient/SampleSzMalariaPatient"/>
    <resource>
      <Patient>
        <id value="SampleSzMalariaPatient"/>
        <meta>
          <profile value="http://192.168.10.200:3447/fhir/StructureDefinition/SzPatient"/>
        </meta>
        <text>
          <status value="generated"/><div xmlns="http://www.w3.org/1999/xhtml"><a name="Patient_SampleSzMalariaPatient"> </a><p class="res-header-id"><b>Generated Narrative: Patient SampleSzMalariaPatient</b></p><a name="SampleSzMalariaPatient"> </a><a name="hcSampleSzMalariaPatient"> </a><div style="display: inline-block; background-color: #d9e0e7; padding: 6px; margin: 4px; border: 1px solid #8da1b4; border-radius: 5px; line-height: 60%"><p style="margin-bottom: 0px"/><p style="margin-bottom: 0px">Profile: <a href="StructureDefinition-SzPatient.html">Eswatini Patient Profile</a></p></div><p style="border: 1px #661aff solid; background-color: #e6e6ff; padding: 10px;">Jacob Samuel Gule  Male, DoB: 1990-01-01 ( Medical Record Number: M002111111-11 (use: usual, ))</p><hr/><table class="grid"><tr><td style="background-color: #f3f5da" title="Other Id (see the one above)">Other Id:</td><td colspan="3">Personal ID Number/1999001000000 (use: official, )</td></tr><tr><td style="background-color: #f3f5da" title="The nationality of the patient.">Patient Nationality:</td><td colspan="3"><ul><li>code: <span title="Codes:{urn:iso:std:iso:3166 SWZ}">Eswatini</span></li><li>period: 1981-01-20 --&gt; (ongoing)</li></ul></td></tr><tr><td style="background-color: #f3f5da" title="Base StructureDefinition for code type: A string which has at least one character and no leading or trailing whitespace and where there is no whitespace other than single spaces in the contents"><a href="http://hl7.org/fhir/R4/datatypes.html#code"/></td><td colspan="3"><ul><li><span title="Codes:{http://localhost:3447/fhir/CodeSystem/SzTinkhundlaCS DVOKODVWENI}">Dvokodvweni</span></li><li><span title="Codes:{http://localhost:3447/fhir/CodeSystem/SzChiefdomCS Kwaluseni}">Kwaluseni</span></li></ul></td></tr></table></div>
        </text>
        <extension url="http://hl7.org/fhir/StructureDefinition/patient-nationality">
          <extension url="code">
            <valueCodeableConcept>
              <coding>
                <system value="urn:iso:std:iso:3166"/>
                <code value="SWZ"/>
                <display value="Eswatini"/>
              </coding>
            </valueCodeableConcept>
          </extension>
          <extension url="period">
            <valuePeriod>
              <start value="1981-01-20"/>
            </valuePeriod>
          </extension>
        </extension>
        <extension url="code">
          <valueCodeableConcept>
            <coding>
              <system value="http://localhost:3447/fhir/CodeSystem/SzTinkhundlaCS"/>
              <code value="DVOKODVWENI"/>
              <display value="Dvokodvweni"/>
            </coding>
            <text value="Dvokodvweni"/>
          </valueCodeableConcept>
        </extension>
        <extension url="code">
          <valueCodeableConcept>
            <coding>
              <system value="http://localhost:3447/fhir/CodeSystem/SzChiefdomCS"/>
              <code value="Kwaluseni"/>
              <display value="Kwaluseni"/>
            </coding>
            <text value="Kwaluseni"/>
          </valueCodeableConcept>
        </extension>
        <identifier>
          <use value="usual"/>
          <type>
            <coding>
              <system value="http://192.168.10.200:3447/fhir/CodeSystem/SzPersonIdentificationsCS"/>
              <code value="MR"/>
              <display value="Medical Record Number"/>
            </coding>
          </type>
          <system value="http://mfl.sys/m001"/>
          <value value="M002111111-11"/>
        </identifier>
        <identifier>
          <use value="official"/>
          <type>
            <coding>
              <system value="http://192.168.10.200:3447/fhir/CodeSystem/SzPersonIdentificationsCS"/>
              <code value="PI"/>
              <display value="Personal ID Number"/>
            </coding>
          </type>
          <system value="http://homeaffairs.sys"/>
          <value value="1999001000000"/>
        </identifier>
        <name>
          <family value="Gule"/>
          <given value="Jacob"/>
          <given value="Samuel"/>
        </name>
        <gender value="male"/>
        <birthDate value="1990-01-01">
          <extension url="http://hl7.org/fhir/StructureDefinition/patient-birthTime">
            <valueDateTime value="2000-01-01T14:35:45-05:00"/>
          </extension>
        </birthDate>
      </Patient>
    </resource>
    <request>
      <method value="PUT"/>
      <url value="Patient/SampleSzMalariaPatient"/>
    </request>
  </entry>
  <entry>
    <fullUrl value="http://localhost:3447/fhir/Encounter/SampleSzMalariaEncounter"/>
    <resource>
      <Encounter>
        <id value="SampleSzMalariaEncounter"/>
        <meta>
          <profile value="http://192.168.10.200:3447/fhir/StructureDefinition/SzEncounter"/>
        </meta>
        <text>
          <status value="generated"/><div xmlns="http://www.w3.org/1999/xhtml"><a name="Encounter_SampleSzMalariaEncounter"> </a><p class="res-header-id"><b>Generated Narrative: Encounter SampleSzMalariaEncounter</b></p><a name="SampleSzMalariaEncounter"> </a><a name="hcSampleSzMalariaEncounter"> </a><div style="display: inline-block; background-color: #d9e0e7; padding: 6px; margin: 4px; border: 1px solid #8da1b4; border-radius: 5px; line-height: 60%"><p style="margin-bottom: 0px"/><p style="margin-bottom: 0px">Profile: <a href="StructureDefinition-SzEncounter.html">Eswatini Encounter Profile</a></p></div><p><b>status</b>: Finished</p><p><b>class</b>: SzEncounterClassificationCS OPD: Out Patient Department</p><p><b>subject</b>: <a href="Patient-SampleSzPatient.html">Celucolo Celani Sacolo  Male, DoB: 2000-01-01 ( Medical Record Number: Client Management Information System#M001010101-1 (use: usual, ))</a></p><h3>Participants</h3><table class="grid"><tr><td style="display: none">-</td><td><b>Individual</b></td></tr><tr><td style="display: none">*</td><td><a href="Practitioner-SampleSzPractitioner.html">Practitioner Thabile Celiwe Dlamini </a></td></tr></table><p><b>reasonCode</b>: <span title="Codes:{http://localhost:3447/fhir/CodeSystem/SzServicePointCS ART}">Antiretrovial Therapy</span></p><h3>Locations</h3><table class="grid"><tr><td style="display: none">-</td><td><b>Location</b></td><td><b>Status</b></td></tr><tr><td style="display: none">*</td><td><a href="Location-SampleSzLocation.html">Location Mahwalala Red Cross Clinic</a></td><td>Completed</td></tr></table></div>
        </text>
        <status value="finished"/>
        <class>
          <system value="http://localhost:3447/fhir/CodeSystem/SzEncounterClassificationCS"/>
          <code value="OPD"/>
          <display value="Out Patient Department"/>
        </class>
        <subject>
          <reference value="Patient/SampleSzPatient"/>
        </subject>
        <participant>
          <individual>
            <reference value="Practitioner/SampleSzPractitioner"/>
          </individual>
        </participant>
        <reasonCode>
          <coding>
            <system value="http://localhost:3447/fhir/CodeSystem/SzServicePointCS"/>
            <code value="ART"/>
            <display value="Antiretrovial Therapy"/>
          </coding>
          <text value="Antiretrovial Therapy"/>
        </reasonCode>
        <location>
          <location>
            <reference value="Location/SampleSzLocation"/>
          </location>
          <status value="completed"/>
        </location>
      </Encounter>
    </resource>
    <request>
      <method value="PUT"/>
      <url value="Encounter/SampleSzMalariaEncounter"/>
    </request>
  </entry>
  <entry>
    <fullUrl value="http://localhost:3447/fhir/Observation/SampleVitalsWeight"/>
    <resource>
      <Observation>
        <id value="SampleVitalsWeight"/>
        <meta>
          <profile value="http://192.168.10.200:3447/fhir/StructureDefinition/SzVitalSigns"/>
        </meta>
        <text>
          <status value="generated"/><div xmlns="http://www.w3.org/1999/xhtml"><a name="Observation_SampleVitalsWeight"> </a><p class="res-header-id"><b>Generated Narrative: Observation SampleVitalsWeight</b></p><a name="SampleVitalsWeight"> </a><a name="hcSampleVitalsWeight"> </a><div style="display: inline-block; background-color: #d9e0e7; padding: 6px; margin: 4px; border: 1px solid #8da1b4; border-radius: 5px; line-height: 60%"><p style="margin-bottom: 0px"/><p style="margin-bottom: 0px">Profile: <a href="StructureDefinition-SzVitalSigns.html">Eswatini Vital Signs Profile</a></p></div><p><b>status</b>: Final</p><p><b>category</b>: <span title="Codes:{http://terminology.hl7.org/CodeSystem/observation-category vital-signs}">Vital Signs</span></p><p><b>code</b>: <span title="Codes:{http://hl7.org/fhir/ValueSet/observation-vitalsignresult 29463-7}">Body weight</span></p><p><b>subject</b>: <a href="Patient-SampleSzPatient.html">Celucolo Celani Sacolo  Male, DoB: 2000-01-01 ( Medical Record Number: Client Management Information System#M001010101-1 (use: usual, ))</a></p><p><b>effective</b>: 2024-11-25</p><p><b>value</b>: 75 kg</p></div>
        </text>
        <status value="final"/>
        <category>
          <coding>
            <system value="http://terminology.hl7.org/CodeSystem/observation-category"/>
            <code value="vital-signs"/>
          </coding>
        </category>
        <code>
          <coding>
            <system value="http://hl7.org/fhir/ValueSet/observation-vitalsignresult"/>
            <code value="29463-7"/>
            <display value="Body weight"/>
          </coding>
          <text value="Body weight"/>
        </code>
        <subject>
          <reference value="Patient/SampleSzPatient"/>
        </subject>
        <effectiveDateTime value="2024-11-25"/>
        <valueQuantity>
          <value value="75"/>
          <unit value="kg"/>
        </valueQuantity>
      </Observation>
    </resource>
    <request>
      <method value="PUT"/>
      <url value="Observation/SampleVitalsWeight"/>
    </request>
  </entry>
  <entry>
    <fullUrl value="http://localhost:3447/fhir/Observation/SampleVitalsHeight"/>
    <resource>
      <Observation>
        <id value="SampleVitalsHeight"/>
        <meta>
          <profile value="http://192.168.10.200:3447/fhir/StructureDefinition/SzVitalSigns"/>
        </meta>
        <text>
          <status value="generated"/><div xmlns="http://www.w3.org/1999/xhtml"><a name="Observation_SampleVitalsHeight"> </a><p class="res-header-id"><b>Generated Narrative: Observation SampleVitalsHeight</b></p><a name="SampleVitalsHeight"> </a><a name="hcSampleVitalsHeight"> </a><div style="display: inline-block; background-color: #d9e0e7; padding: 6px; margin: 4px; border: 1px solid #8da1b4; border-radius: 5px; line-height: 60%"><p style="margin-bottom: 0px"/><p style="margin-bottom: 0px">Profile: <a href="StructureDefinition-SzVitalSigns.html">Eswatini Vital Signs Profile</a></p></div><p><b>status</b>: Final</p><p><b>category</b>: <span title="Codes:{http://terminology.hl7.org/CodeSystem/observation-category vital-signs}">Vital Signs</span></p><p><b>code</b>: <span title="Codes:{http://hl7.org/fhir/ValueSet/observation-vitalsignresult 8302-2}">Body height</span></p><p><b>subject</b>: <a href="Patient-SampleSzPatient.html">Celucolo Celani Sacolo  Male, DoB: 2000-01-01 ( Medical Record Number: Client Management Information System#M001010101-1 (use: usual, ))</a></p><p><b>effective</b>: 2024-11-25</p><p><b>value</b>: 175 cm</p></div>
        </text>
        <status value="final"/>
        <category>
          <coding>
            <system value="http://terminology.hl7.org/CodeSystem/observation-category"/>
            <code value="vital-signs"/>
          </coding>
        </category>
        <code>
          <coding>
            <system value="http://hl7.org/fhir/ValueSet/observation-vitalsignresult"/>
            <code value="8302-2"/>
            <display value="Body height"/>
          </coding>
          <text value="Body height"/>
        </code>
        <subject>
          <reference value="Patient/SampleSzPatient"/>
        </subject>
        <effectiveDateTime value="2024-11-25"/>
        <valueQuantity>
          <value value="175"/>
          <unit value="cm"/>
        </valueQuantity>
      </Observation>
    </resource>
    <request>
      <method value="PUT"/>
      <url value="Observation/SampleVitalsHeight"/>
    </request>
  </entry>
  <entry>
    <fullUrl value="http://localhost:3447/fhir/Observation/SampleVitalsTemperature"/>
    <resource>
      <Observation>
        <id value="SampleVitalsTemperature"/>
        <meta>
          <profile value="http://192.168.10.200:3447/fhir/StructureDefinition/SzVitalSigns"/>
        </meta>
        <text>
          <status value="generated"/><div xmlns="http://www.w3.org/1999/xhtml"><a name="Observation_SampleVitalsTemperature"> </a><p class="res-header-id"><b>Generated Narrative: Observation SampleVitalsTemperature</b></p><a name="SampleVitalsTemperature"> </a><a name="hcSampleVitalsTemperature"> </a><div style="display: inline-block; background-color: #d9e0e7; padding: 6px; margin: 4px; border: 1px solid #8da1b4; border-radius: 5px; line-height: 60%"><p style="margin-bottom: 0px"/><p style="margin-bottom: 0px">Profile: <a href="StructureDefinition-SzVitalSigns.html">Eswatini Vital Signs Profile</a></p></div><p><b>status</b>: Final</p><p><b>category</b>: <span title="Codes:{http://terminology.hl7.org/CodeSystem/observation-category vital-signs}">Vital Signs</span></p><p><b>code</b>: <span title="Codes:{http://hl7.org/fhir/ValueSet/observation-vitalsignresult 8310-5}">Temperature</span></p><p><b>subject</b>: <a href="Patient-SampleSzPatient.html">Celucolo Celani Sacolo  Male, DoB: 2000-01-01 ( Medical Record Number: Client Management Information System#M001010101-1 (use: usual, ))</a></p><p><b>effective</b>: 2024-11-25</p><p><b>value</b>: 37.5 °C</p></div>
        </text>
        <status value="final"/>
        <category>
          <coding>
            <system value="http://terminology.hl7.org/CodeSystem/observation-category"/>
            <code value="vital-signs"/>
          </coding>
        </category>
        <code>
          <coding>
            <system value="http://hl7.org/fhir/ValueSet/observation-vitalsignresult"/>
            <code value="8310-5"/>
            <display value="Body temperature"/>
          </coding>
          <text value="Temperature"/>
        </code>
        <subject>
          <reference value="Patient/SampleSzPatient"/>
        </subject>
        <effectiveDateTime value="2024-11-25"/>
        <valueQuantity>
          <value value="37.5"/>
          <unit value="°C"/>
        </valueQuantity>
      </Observation>
    </resource>
    <request>
      <method value="PUT"/>
      <url value="Observation/SampleVitalsTemperature"/>
    </request>
  </entry>
  <entry>
    <fullUrl value="http://localhost:3447/fhir/Observation/SampleVitalsRespiratoryRate"/>
    <resource>
      <Observation>
        <id value="SampleVitalsRespiratoryRate"/>
        <meta>
          <profile value="http://192.168.10.200:3447/fhir/StructureDefinition/SzVitalSigns"/>
        </meta>
        <text>
          <status value="generated"/><div xmlns="http://www.w3.org/1999/xhtml"><a name="Observation_SampleVitalsRespiratoryRate"> </a><p class="res-header-id"><b>Generated Narrative: Observation SampleVitalsRespiratoryRate</b></p><a name="SampleVitalsRespiratoryRate"> </a><a name="hcSampleVitalsRespiratoryRate"> </a><div style="display: inline-block; background-color: #d9e0e7; padding: 6px; margin: 4px; border: 1px solid #8da1b4; border-radius: 5px; line-height: 60%"><p style="margin-bottom: 0px"/><p style="margin-bottom: 0px">Profile: <a href="StructureDefinition-SzVitalSigns.html">Eswatini Vital Signs Profile</a></p></div><p><b>status</b>: Final</p><p><b>category</b>: <span title="Codes:{http://terminology.hl7.org/CodeSystem/observation-category vital-signs}">Vital Signs</span></p><p><b>code</b>: <span title="Codes:{http://hl7.org/fhir/ValueSet/observation-vitalsignresult 9279-1}">Respiratory rate</span></p><p><b>subject</b>: <a href="Patient-SampleSzPatient.html">Celucolo Celani Sacolo  Male, DoB: 2000-01-01 ( Medical Record Number: Client Management Information System#M001010101-1 (use: usual, ))</a></p><p><b>effective</b>: 2024-11-25</p><p><b>value</b>: 89 bpm</p></div>
        </text>
        <status value="final"/>
        <category>
          <coding>
            <system value="http://terminology.hl7.org/CodeSystem/observation-category"/>
            <code value="vital-signs"/>
          </coding>
        </category>
        <code>
          <coding>
            <system value="http://hl7.org/fhir/ValueSet/observation-vitalsignresult"/>
            <code value="9279-1"/>
            <display value="Respiratory rate"/>
          </coding>
          <text value="Respiratory rate"/>
        </code>
        <subject>
          <reference value="Patient/SampleSzPatient"/>
        </subject>
        <effectiveDateTime value="2024-11-25"/>
        <valueQuantity>
          <value value="89"/>
          <unit value="bpm"/>
        </valueQuantity>
      </Observation>
    </resource>
    <request>
      <method value="PUT"/>
      <url value="Observation/SampleVitalsRespiratoryRate"/>
    </request>
  </entry>
  <entry>
    <fullUrl value="http://localhost:3447/fhir/Observation/SampleVitalsBodyMassIndex"/>
    <resource>
      <Observation>
        <id value="SampleVitalsBodyMassIndex"/>
        <meta>
          <profile value="http://192.168.10.200:3447/fhir/StructureDefinition/SzVitalSigns"/>
        </meta>
        <text>
          <status value="generated"/><div xmlns="http://www.w3.org/1999/xhtml"><a name="Observation_SampleVitalsBodyMassIndex"> </a><p class="res-header-id"><b>Generated Narrative: Observation SampleVitalsBodyMassIndex</b></p><a name="SampleVitalsBodyMassIndex"> </a><a name="hcSampleVitalsBodyMassIndex"> </a><div style="display: inline-block; background-color: #d9e0e7; padding: 6px; margin: 4px; border: 1px solid #8da1b4; border-radius: 5px; line-height: 60%"><p style="margin-bottom: 0px"/><p style="margin-bottom: 0px">Profile: <a href="StructureDefinition-SzVitalSigns.html">Eswatini Vital Signs Profile</a></p></div><p><b>status</b>: Final</p><p><b>category</b>: <span title="Codes:{http://terminology.hl7.org/CodeSystem/observation-category vital-signs}">Vital Signs</span></p><p><b>code</b>: <span title="Codes:{http://hl7.org/fhir/ValueSet/observation-vitalsignresult 39156-5}">Body mass index</span></p><p><b>subject</b>: <a href="Patient-SampleSzPatient.html">Celucolo Celani Sacolo  Male, DoB: 2000-01-01 ( Medical Record Number: Client Management Information System#M001010101-1 (use: usual, ))</a></p><p><b>effective</b>: 2024-11-25</p><p><b>value</b>: 18.1 kg/m²</p></div>
        </text>
        <status value="final"/>
        <category>
          <coding>
            <system value="http://terminology.hl7.org/CodeSystem/observation-category"/>
            <code value="vital-signs"/>
          </coding>
        </category>
        <code>
          <coding>
            <system value="http://hl7.org/fhir/ValueSet/observation-vitalsignresult"/>
            <code value="39156-5"/>
            <display value="Body mass index"/>
          </coding>
          <text value="Body mass index"/>
        </code>
        <subject>
          <reference value="Patient/SampleSzPatient"/>
        </subject>
        <effectiveDateTime value="2024-11-25"/>
        <valueQuantity>
          <value value="18.1"/>
          <unit value="kg/m²"/>
        </valueQuantity>
      </Observation>
    </resource>
    <request>
      <method value="PUT"/>
      <url value="Observation/SampleVitalsBodyMassIndex"/>
    </request>
  </entry>
  <entry>
    <fullUrl value="http://localhost:3447/fhir/DiagnosticReport/SampleSzMalariaLabTest"/>
    <resource>
      <DiagnosticReport>
        <id value="SampleSzMalariaLabTest"/>
        <meta>
          <profile value="http://192.168.10.200:3447/fhir/StructureDefinition/SzLabTest"/>
        </meta>
        <text>
          <status value="generated"/><div xmlns="http://www.w3.org/1999/xhtml"><a name="DiagnosticReport_SampleSzMalariaLabTest"> </a><p class="res-header-id"><b>Generated Narrative: DiagnosticReport SampleSzMalariaLabTest</b></p><a name="SampleSzMalariaLabTest"> </a><a name="hcSampleSzMalariaLabTest"> </a><div style="display: inline-block; background-color: #d9e0e7; padding: 6px; margin: 4px; border: 1px solid #8da1b4; border-radius: 5px; line-height: 60%"><p style="margin-bottom: 0px"/><p style="margin-bottom: 0px">Profile: <a href="StructureDefinition-SzLabTest.html">Eswatini Lab Test Profile</a></p></div><h2><span title="Codes:{http://localhost:3447/fhir/CodeSystem/SzTestCodeCS MALS}">Malaria Smear</span> </h2><table class="grid"><tr><td>Subject</td><td>Jacob Samuel Gule  Male, DoB: 1990-01-01 ( Medical Record Number: M002111111-11 (use: usual, ))</td></tr><tr><td>When For</td><td>2024-11-26 10:00:00+0000</td></tr><tr><td>Reported</td><td>2024-11-26 10:00:00+0000</td></tr><tr><td>Performer</td><td> <a href="Practitioner-SampleSzPractitioner.html">Practitioner Thabile Celiwe Dlamini </a></td></tr></table><p><b>Report Details</b></p></div>
        </text>
        <status value="final"/>
        <code>
          <coding>
            <system value="http://localhost:3447/fhir/CodeSystem/SzTestCodeCS"/>
            <code value="MALS"/>
            <display value="Malaria Smear"/>
          </coding>
          <text value="Malaria Smear"/>
        </code>
        <subject>
          <reference value="Patient/SampleSzMalariaPatient"/>
        </subject>
        <encounter>
          <reference value="Encounter/SampleSzMalariaEncounter"/>
        </encounter>
        <effectiveDateTime value="2024-11-26T10:00:00Z"/>
        <issued value="2024-11-26T10:00:00Z"/>
        <performer>
          <reference value="Practitioner/SampleSzPractitioner"/>
        </performer>
        <specimen>
          <reference value="Specimen/SampleSzMalariaSpecimen"/>
        </specimen>
      </DiagnosticReport>
    </resource>
    <request>
      <method value="PUT"/>
      <url value="DiagnosticReport/SampleSzMalariaLabTest"/>
    </request>
  </entry>
  <entry>
    <fullUrl value="http://localhost:3447/fhir/Condition/SampleSzMalariaCondition-001"/>
    <resource>
      <Condition>
        <id value="SampleSzMalariaCondition-001"/>
        <text>
          <status value="generated"/><div xmlns="http://www.w3.org/1999/xhtml"><a name="Condition_SampleSzMalariaCondition-001"> </a><p class="res-header-id"><b>Generated Narrative: Condition SampleSzMalariaCondition-001</b></p><a name="SampleSzMalariaCondition-001"> </a><a name="hcSampleSzMalariaCondition-001"> </a><p><b>clinicalStatus</b>: <span title="Codes:{http://terminology.hl7.org/CodeSystem/condition-clinical active}">Active</span></p><p><b>verificationStatus</b>: <span title="Codes:{http://terminology.hl7.org/CodeSystem/condition-ver-status confirmed}">Confirmed</span></p><p><b>category</b>: <span title="Codes:{http://terminology.hl7.org/CodeSystem/condition-category diagnosis}">Diagnosis</span></p><p><b>code</b>: <span title="Codes:{http://hl7.org/fhir/sid/icd-11 1A11.0}, {http://hl7.org/fhir/sid/icd-11 1A11.1}, {http://hl7.org/fhir/sid/icd-11 1A11.2}, {http://hl7.org/fhir/sid/icd-11 1A11.3}">Plasmodium falciparum malaria</span></p><p><b>subject</b>: <a href="Patient-SampleSzMalariaPatient.html">Jacob Samuel Gule  Male, DoB: 1990-01-01 ( Medical Record Number: M002111111-11 (use: usual, ))</a></p><p><b>onset</b>: 2024-11-24</p><p><b>recordedDate</b>: 2024-11-26</p><p><b>asserter</b>: <a href="Practitioner-SampleSzPractitioner.html">Practitioner Thabile Celiwe Dlamini </a></p></div>
        </text>
        <clinicalStatus>
          <coding>
            <system value="http://terminology.hl7.org/CodeSystem/condition-clinical"/>
            <code value="active"/>
            <display value="Active"/>
          </coding>
        </clinicalStatus>
        <verificationStatus>
          <coding>
            <system value="http://terminology.hl7.org/CodeSystem/condition-ver-status"/>
            <code value="confirmed"/>
            <display value="Confirmed"/>
          </coding>
        </verificationStatus>
        <category>
          <coding>
            <system value="http://terminology.hl7.org/CodeSystem/condition-category"/>
            <code value="diagnosis"/>
            <display value="Diagnosis"/>
          </coding>
        </category>
        <code>
          <coding>
            <system value="http://hl7.org/fhir/sid/icd-11"/>
            <code value="1A11.0"/>
            <display value="Plasmodium falciparum malaria"/>
          </coding>
          <coding>
            <system value="http://hl7.org/fhir/sid/icd-11"/>
            <code value="1A11.1"/>
            <display value="Plasmodium vivax malaria"/>
          </coding>
          <coding>
            <system value="http://hl7.org/fhir/sid/icd-11"/>
            <code value="1A11.2"/>
            <display value="Plasmodium malariae malaria"/>
          </coding>
          <coding>
            <system value="http://hl7.org/fhir/sid/icd-11"/>
            <code value="1A11.3"/>
            <display value="Plasmodium ovale malaria"/>
          </coding>
        </code>
        <subject>
          <reference value="Patient/SampleSzMalariaPatient"/>
        </subject>
        <onsetDateTime value="2024-11-24"/>
        <recordedDate value="2024-11-26"/>
        <asserter>
          <reference value="Practitioner/SampleSzPractitioner"/>
        </asserter>
      </Condition>
    </resource>
    <request>
      <method value="PUT"/>
      <url value="Condition/SampleSzMalariaCondition-001"/>
    </request>
  </entry>
  <entry>
    <fullUrl value="http://localhost:3447/fhir/MedicationRequest/SampleSzMalariaMedicationRequest"/>
    <resource>
      <MedicationRequest>
        <id value="SampleSzMalariaMedicationRequest"/>
        <meta>
          <profile value="http://192.168.10.200:3447/fhir/StructureDefinition/SzMedicationRequest"/>
        </meta>
        <text>
          <status value="generated"/><div xmlns="http://www.w3.org/1999/xhtml"><a name="MedicationRequest_SampleSzMalariaMedicationRequest"> </a><p class="res-header-id"><b>Generated Narrative: MedicationRequest SampleSzMalariaMedicationRequest</b></p><a name="SampleSzMalariaMedicationRequest"> </a><a name="hcSampleSzMalariaMedicationRequest"> </a><div style="display: inline-block; background-color: #d9e0e7; padding: 6px; margin: 4px; border: 1px solid #8da1b4; border-radius: 5px; line-height: 60%"><p style="margin-bottom: 0px"/><p style="margin-bottom: 0px">Profile: <a href="StructureDefinition-SzMedicationRequest.html">Eswatini Medication Request Profile</a></p></div><p><b>status</b>: Active</p><p><b>intent</b>: Order</p><p><b>medication</b>: <span title="Codes:{http://localhost:3447/fhir/CodeSystem/SzProductCodeCS 102492}">Paracetamol Tablets 500g (Coloured Green) 100 TABS</span></p><p><b>subject</b>: <a href="Patient-SampleSzMalariaPatient.html">Jacob Samuel Gule  Male, DoB: 1990-01-01 ( Medical Record Number: M002111111-11 (use: usual, ))</a></p><p><b>encounter</b>: <a href="Encounter-SampleSzMalariaEncounter.html">Encounter: status = finished; class = Out Patient Department (SzEncounterClassificationCS#OPD); reasonCode = Antiretrovial Therapy</a></p><p><b>authoredOn</b>: 2024-11-25 10:00:00+0000</p><p><b>requester</b>: <a href="Practitioner-SampleSzPractitioner.html">Practitioner Thabile Celiwe Dlamini </a></p><blockquote><p><b>dosageInstruction</b></p><p><b>text</b>: Take one tablet by mouth 3 times a day before food</p><p><b>timing</b>: 3 per 1 day</p><h3>DoseAndRates</h3><table class="grid"><tr><td style="display: none">-</td><td><b>Dose[x]</b></td></tr><tr><td style="display: none">*</td><td>1 tablet</td></tr></table></blockquote></div>
        </text>
        <status value="active"/>
        <intent value="order"/>
        <medicationCodeableConcept>
          <coding>
            <system value="http://localhost:3447/fhir/CodeSystem/SzProductCodeCS"/>
            <code value="102492"/>
            <display value="Paracetamol Tablets 500g (Coloured Green) 100 TABS"/>
          </coding>
          <text value="Paracetamol Tablets 500g (Coloured Green) 100 TABS"/>
        </medicationCodeableConcept>
        <subject>
          <reference value="Patient/SampleSzMalariaPatient"/>
        </subject>
        <encounter>
          <reference value="Encounter/SampleSzMalariaEncounter"/>
        </encounter>
        <authoredOn value="2024-11-25T10:00:00Z"/>
        <requester>
          <reference value="Practitioner/SampleSzPractitioner"/>
        </requester>
        <dosageInstruction>
          <text value="Take one tablet by mouth 3 times a day before food"/>
          <timing>
            <repeat>
              <frequency value="3"/>
              <period value="1"/>
              <periodUnit value="d"/>
            </repeat>
          </timing>
          <doseAndRate>
            <doseQuantity>
              <value value="1"/>
              <unit value="tablet"/>
            </doseQuantity>
          </doseAndRate>
        </dosageInstruction>
      </MedicationRequest>
    </resource>
    <request>
      <method value="PUT"/>
      <url value="MedicationRequest/SampleSzMalariaMedicationRequest"/>
    </request>
  </entry>
  <entry>
    <fullUrl value="http://localhost:3447/fhir/Observation/SampleSzMalariaTravelHistory"/>
    <resource>
      <Observation>
        <id value="SampleSzMalariaTravelHistory"/>
        <meta>
          <profile value="http://192.168.10.200:3447/fhir/StructureDefinition/SzClinicalObservation"/>
        </meta>
        <text>
          <status value="generated"/><div xmlns="http://www.w3.org/1999/xhtml"><a name="Observation_SampleSzMalariaTravelHistory"> </a><p class="res-header-id"><b>Generated Narrative: Observation SampleSzMalariaTravelHistory</b></p><a name="SampleSzMalariaTravelHistory"> </a><a name="hcSampleSzMalariaTravelHistory"> </a><div style="display: inline-block; background-color: #d9e0e7; padding: 6px; margin: 4px; border: 1px solid #8da1b4; border-radius: 5px; line-height: 60%"><p style="margin-bottom: 0px"/><p style="margin-bottom: 0px">Profile: <a href="StructureDefinition-SzClinicalObservation.html">Eswatini Clinical Observation Profile</a></p></div><p><b>status</b>: Final</p><p><b>code</b>: <span title="Codes:{http://snomed.info/sct 420008001}">Travel history</span></p><p><b>subject</b>: <a href="Patient-SampleSzMalariaPatient.html">Jacob Samuel Gule  Male, DoB: 1990-01-01 ( Medical Record Number: M002111111-11 (use: usual, ))</a></p><p><b>effective</b>: 2024-11-01 --&gt; 2024-11-15</p><h3>Components</h3><table class="grid"><tr><td style="display: none">-</td><td><b>Code</b></td><td><b>Value[x]</b></td></tr><tr><td style="display: none">*</td><td><span title="Codes:{http://snomed.info/sct 420008001}">Travel location</span></td><td><span title="Codes:{http://snomed.info/sct 24658006}">France</span></td></tr></table></div>
        </text>
        <status value="final"/>
        <code>
          <coding>
            <system value="http://snomed.info/sct"/>
            <code value="420008001"/>
            <display value="Travel history"/>
          </coding>
        </code>
        <subject>
          <reference value="Patient/SampleSzMalariaPatient"/>
        </subject>
        <effectivePeriod>
          <start value="2024-11-01"/>
          <end value="2024-11-15"/>
        </effectivePeriod>
        <component>
          <code>
            <coding>
              <system value="http://snomed.info/sct"/>
              <code value="420008001"/>
              <display value="Travel location"/>
            </coding>
          </code>
          <valueCodeableConcept>
            <coding>
              <system value="http://snomed.info/sct"/>
              <code value="24658006"/>
              <display value="France"/>
            </coding>
          </valueCodeableConcept>
        </component>
      </Observation>
    </resource>
    <request>
      <method value="PUT"/>
      <url value="Observation/SampleSzMalariaTravelHistory"/>
    </request>
  </entry>
</Bundle>